Folder: AER-E-322-lab-04/Lab 04 Report/src

File: Lab 4 Tensile Data Instron.csv
Time (s),Extension (in),Load (lbf)
0,0,0.02346
0.2,0.00003,0.67896
0.4,0.00007,1.85824
0.6,0.0001,3.03671
0.8,0.00013,4.25975
1,0.00017,5.56071
1.2,0.0002,6.86384
1.4,0.00023,8.08236
1.6,0.00027,9.29161
1.8,0.0003,10.55893
2,0.00033,11.73241
2.2,0.00036,12.91472
2.4,0.00039,14.19553
2.6,0.00042,15.39797
2.8,0.00045,16.58499
3,0.00049,17.85484
3.2,0.00052,19.10204
3.4,0.00055,20.33324
3.6,0.00058,21.44468
3.8,0.00061,22.66326
4,0.00064,23.91536
4.2,0.00068,25.12836
4.4,0.00071,26.26556
4.6,0.00074,27.49456
4.8,0.00077,28.7188
5,0.0008,29.84186
5.2,0.00084,31.07305
5.4,0.00087,32.2965
5.6,0.0009,33.48539
5.8,0.00094,34.72752
6,0.00097,35.96055
6.2,0.001,37.12004
6.4,0.00104,38.27962
6.6,0.00107,39.52218
6.8,0.0011,40.76233
7,0.00113,41.90464
7.2,0.00117,43.10802
7.4,0.0012,44.311
7.6,0.00123,45.46311
7.8,0.00127,46.70348
8,0.0013,47.92832
8.2,0.00133,49.11201
8.4,0.00136,50.3032
8.6,0.0014,51.53042
8.8,0.00143,52.79361
9,0.00146,53.89368
9.2,0.0015,55.10542
9.4,0.00153,56.3137
9.6,0.00157,57.52148
9.8,0.0016,58.69131
10,0.00163,59.92985
10.2,0.00167,61.1058
10.4,0.0017,62.30737
10.6,0.00174,63.53656
10.8,0.00177,64.70248
11,0.0018,65.86739
11.2,0.00184,67.08583
11.4,0.00187,68.33926
11.6,0.00191,69.52595
11.8,0.00194,70.70303
12,0.00197,71.91849
12.2,0.00201,73.1545
12.4,0.00204,74.31178
12.6,0.00208,75.52491
12.8,0.00211,76.70171
13,0.00214,77.86564
13.2,0.00218,79.06344
13.4,0.00221,80.30961
13.6,0.00225,81.46619
13.8,0.00228,82.7028
14,0.00232,83.98559
14.2,0.00235,85.12585
14.4,0.00239,86.28304
14.6,0.00242,87.5395
14.8,0.00246,88.74292
15,0.00249,89.90558
15.2,0.00253,91.10594
15.4,0.00256,92.30822
15.6,0.0026,93.49883
15.8,0.00263,94.70906
16,0.00267,95.9241
16.2,0.00271,97.12073
16.4,0.00274,98.30926
16.6,0.00278,99.57254
16.8,0.00281,100.704
17,0.00285,101.882
17.2,0.00288,103.123
17.4,0.00292,104.37
17.6,0.00295,105.488
17.8,0.00299,106.716
18,0.00303,107.927
18.2,0.00306,109.092
18.4,0.0031,110.31
18.6,0.00314,111.5
18.8,0.00317,112.701
19,0.00321,113.938
19.2,0.00325,115.161
19.4,0.00328,116.2629
19.6,0.00332,117.514
19.8,0.00336,118.726
20,0.00339,119.923
20.2,0.00343,121.104
20.4,0.00347,122.325
20.6,0.00351,123.464
20.8,0.00354,124.705
21,0.00358,125.922
21.2,0.00362,127.108
21.4,0.00366,128.342
21.6,0.0037,129.553
21.8,0.00373,130.698
22,0.00377,131.9339
22.2,0.00381,133.151
22.4,0.00385,134.303
22.6,0.00389,135.505
22.8,0.00393,136.701
23,0.00396,137.861
23.2,0.004,139.1
23.4,0.00404,140.303
23.6,0.00408,141.513
23.8,0.00412,142.76
24,0.00416,143.952
24.2,0.0042,145.0636
24.4,0.00424,146.359
24.6,0.00428,147.554
24.8,0.00431,148.731
25,0.00435,149.924
25.2,0.00439,151.1
25.4,0.00443,152.274
25.6,0.00447,153.547
25.8,0.00451,154.702
26,0.00455,155.9166
26.2,0.00459,157.177
26.4,0.00463,158.324
26.6,0.00467,159.528
26.8,0.00471,160.742
27,0.00475,161.899
27.2,0.00479,163.1383
27.4,0.00483,164.283
27.6,0.00487,165.4759
27.8,0.00491,166.692
28,0.00495,167.89
28.2,0.00499,169.095
28.4,0.00503,170.325
28.6,0.00507,171.52
28.8,0.00511,172.71
29,0.00516,173.963
29.2,0.0052,175.122
29.4,0.00523,176.339
29.6,0.00527,177.537
29.8,0.00531,178.668
30,0.00535,179.912
30.2,0.00539,181.136
30.4,0.00543,182.278
30.6,0.00547,183.539
30.8,0.0055,184.801
31,0.00554,185.909
31.2,0.00557,187.111
31.4,0.00561,188.336
31.6,0.00565,189.5218
31.8,0.00568,190.684
32,0.00572,191.954
32.2,0.00575,193.0908
32.4,0.00579,194.267
32.6,0.00582,195.498
32.8,0.00586,196.704
33,0.00589,197.899
33.2,0.00593,199.137
33.4,0.00597,200.337
33.6,0.006,201.479
33.8,0.00604,202.705
34,0.00607,203.915
34.2,0.00611,205.133
34.4,0.00614,206.342
34.6,0.00618,207.524
34.8,0.00622,208.684
35,0.00625,209.923
35.2,0.00629,211.11
35.4,0.00632,212.305
35.6,0.00636,213.548
35.8,0.0064,214.778
36,0.00643,215.942
36.2,0.00647,217.12
36.4,0.0065,218.374
36.6,0.00654,219.556
36.8,0.00657,220.714
37,0.00661,221.97
37.2,0.00664,223.108
37.4,0.00668,224.317
37.6,0.00672,225.543
37.8,0.00675,226.748
38,0.00679,227.898
38.2,0.00682,229.127
38.4,0.00686,230.365
38.6,0.0069,231.602
38.8,0.00693,232.7445
39,0.00697,233.9622
39.2,0.007,235.161
39.4,0.00704,236.296
39.6,0.00707,237.536
39.8,0.00711,238.663
40,0.00714,239.876
40.2,0.00718,241.098
40.4,0.00721,242.273
40.6,0.00725,243.495
40.8,0.00729,244.799
41,0.00732,245.938
41.2,0.00736,247.115
41.4,0.00739,248.288
41.6,0.00743,249.503
41.8,0.00746,250.726
42,0.0075,251.894
42.2,0.00753,253.081
42.4,0.00756,254.3
42.6,0.0076,255.498
42.8,0.00763,256.765
43,0.00767,257.918
43.2,0.0077,259.088
43.4,0.00774,260.338
43.6,0.00777,261.532
43.8,0.0078,262.678
44,0.00784,263.902
44.2,0.00787,265.137
44.4,0.00791,266.3388
44.6,0.00794,267.494
44.8,0.00797,268.726
45,0.00801,269.896
45.2,0.00804,271.0891
45.4,0.00807,272.361
45.6,0.00811,273.583
45.8,0.00814,274.701
46,0.00817,275.931
46.2,0.00821,277.1765
46.4,0.00824,278.366
46.6,0.00827,279.495
46.8,0.00831,280.744
47,0.00834,281.968
47.2,0.00837,283.159
47.4,0.0084,284.332
47.6,0.00843,285.501
47.8,0.00846,286.674
48,0.0085,287.934
48.2,0.00853,289.144
48.4,0.00856,290.306
48.6,0.00859,291.467
48.8,0.00862,292.7729
49,0.00865,293.975
49.2,0.00868,295.186
49.4,0.00871,296.283
49.6,0.00874,297.5792
49.8,0.00877,298.815
50,0.0088,299.929
50.011,0.0088,300.007